tyrophan thing1
3/25/2014 8:22:35 PM
Wavelength (nm),Absorbance
600.00,-0.007131
599.00,-0.007131
598.00,-0.007131
597.00,-0.007131
596.00,-0.007131
595.00,-0.007131
594.00,-0.007141
593.00,-0.007146
592.00,-0.007169
591.00,-0.007199
590.00,-0.007244
589.00,-0.007251
588.00,-0.007281
587.00,-0.007316
586.00,-0.007360
585.00,-0.007369
584.00,-0.007403
583.00,-0.007455
582.00,-0.007498
581.00,-0.007509
580.00,-0.007570
579.00,-0.007568
578.00,-0.007605
577.00,-0.007656
576.00,-0.007674
575.00,-0.007688
574.00,-0.007720
573.00,-0.007737
572.00,-0.007754
571.00,-0.007779
570.00,-0.007802
569.00,-0.007773
568.00,-0.007808
567.00,-0.007833
566.00,-0.007858
565.00,-0.007877
564.00,-0.007925
563.00,-0.007945
562.00,-0.007970
561.00,-0.008012
560.00,-0.008029
559.00,-0.008061
558.00,-0.008107
557.00,-0.008133
556.00,-0.008149
555.00,-0.008160
554.00,-0.008198
553.00,-0.008216
552.00,-0.008263
551.00,-0.008298
550.00,-0.008315
549.00,-0.008356
548.00,-0.008394
547.00,-0.008426
546.00,-0.008449
545.00,-0.008479
544.00,-0.008519
543.00,-0.008577
542.00,-0.008652
541.00,-0.008718
540.00,-0.008800
539.00,-0.008901
538.00,-0.009019
537.00,-0.009145
536.00,-0.009269
535.00,-0.009415
534.00,-0.009569
533.00,-0.009703
532.00,-0.009824
531.00,-0.009903
530.00,-0.009927
529.00,-0.009893
528.00,-0.009839
527.00,-0.009785
526.00,-0.009697
525.00,-0.009620
524.00,-0.009549
523.00,-0.009439
522.00,-0.009339
521.00,-0.009241
520.00,-0.009159
519.00,-0.009146
518.00,-0.009173
517.00,-0.009205
516.00,-0.009227
515.00,-0.009288
514.00,-0.009349
513.00,-0.009411
512.00,-0.009495
511.00,-0.009565
510.00,-0.009636
509.00,-0.009725
508.00,-0.009821
507.00,-0.009900
506.00,-0.009986
505.00,-0.010066
504.00,-0.010133
503.00,-0.010212
502.00,-0.010256
501.00,-0.010281
500.00,-0.010307
499.00,-0.010304
498.00,-0.010295
497.00,-0.010270
496.00,-0.010253
495.00,-0.010242
494.00,-0.010221
493.00,-0.010191
492.00,-0.010141
491.00,-0.010112
490.00,-0.010126
489.00,-0.010137
488.00,-0.010157
487.00,-0.010176
486.00,-0.010203
485.00,-0.010227
484.00,-0.010249
483.00,-0.010263
482.00,-0.010297
481.00,-0.010334
480.00,-0.010357
479.00,-0.010375
478.00,-0.010407
477.00,-0.010437
476.00,-0.010470
475.00,-0.010500
474.00,-0.010549
473.00,-0.010572
472.00,-0.010615
471.00,-0.010662
470.00,-0.010695
469.00,-0.010743
468.00,-0.010771
467.00,-0.010786
466.00,-0.010835
465.00,-0.010866
464.00,-0.010903
463.00,-0.010930
462.00,-0.010982
461.00,-0.011019
460.00,-0.011036
459.00,-0.011069
458.00,-0.011097
457.00,-0.011137
456.00,-0.011177
455.00,-0.011213
454.00,-0.011258
453.00,-0.011302
452.00,-0.011359
451.00,-0.011403
450.00,-0.011466
449.00,-0.011528
448.00,-0.011601
447.00,-0.011667
446.00,-0.011741
445.00,-0.011793
444.00,-0.011862
443.00,-0.011929
442.00,-0.011981
441.00,-0.012028
440.00,-0.012075
439.00,-0.012114
438.00,-0.012154
437.00,-0.012172
436.00,-0.012201
435.00,-0.012213
434.00,-0.012254
433.00,-0.012276
432.00,-0.012303
431.00,-0.012348
430.00,-0.012401
429.00,-0.012453
428.00,-0.012510
427.00,-0.012579
426.00,-0.012655
425.00,-0.012735
424.00,-0.012809
423.00,-0.012891
422.00,-0.012956
421.00,-0.013007
420.00,-0.013052
419.00,-0.013074
418.00,-0.013118
417.00,-0.013149
416.00,-0.013177
415.00,-0.013189
414.00,-0.013209
413.00,-0.013214
412.00,-0.013221
411.00,-0.013238
410.00,-0.013275
409.00,-0.013308
408.00,-0.013361
407.00,-0.013398
406.00,-0.013449
405.00,-0.013480
404.00,-0.013552
403.00,-0.013593
402.00,-0.013649
401.00,-0.013707
400.00,-0.013771
399.00,-0.013819
398.00,-0.013862
397.00,-0.013895
396.00,-0.013943
395.00,-0.013980
394.00,-0.014039
393.00,-0.014090
392.00,-0.014149
391.00,-0.014221
390.00,-0.014283
389.00,-0.014324
388.00,-0.014400
387.00,-0.014476
386.00,-0.014554
385.00,-0.014599
384.00,-0.014649
383.00,-0.014660
382.00,-0.014685
381.00,-0.014730
380.00,-0.014770
379.00,-0.014816
378.00,-0.014888
377.00,-0.014964
376.00,-0.015050
375.00,-0.015122
374.00,-0.015225
373.00,-0.015312
372.00,-0.015474
371.00,-0.015575
370.00,-0.015655
369.00,-0.015746
368.00,-0.015807
367.00,-0.015863
366.00,-0.015893
365.00,-0.015929
364.00,-0.015970
363.00,-0.015981
362.00,-0.016025
361.00,-0.016007
360.00,-0.016036
359.00,-0.016083
358.00,-0.016118
357.00,-0.016189
356.00,-0.016259
355.00,-0.016311
354.00,-0.016359
353.00,-0.016414
352.00,-0.016501
351.00,-0.016560
350.00,-0.016637
349.00,-0.016699
348.00,-0.016765
347.00,-0.016810
346.00,-0.016872
345.00,-0.016906
344.00,-0.016952
343.00,-0.017020
342.00,-0.017124
341.00,-0.017222
340.00,-0.017302
339.00,-0.017373
338.00,-0.017441
337.00,-0.017529
336.00,-0.017644
335.00,-0.017720
334.00,-0.017796
333.00,-0.017873
332.00,-0.017923
331.00,-0.017960
330.00,-0.018002
329.00,-0.018064
328.00,-0.018158
327.00,-0.018228
326.00,-0.018282
325.00,-0.018334
324.00,-0.018382
323.00,-0.018451
322.00,-0.018514
321.00,-0.018557
320.00,-0.018573
319.00,-0.018612
318.00,-0.018651
317.00,-0.018639
316.00,-0.018657
315.00,-0.018609
314.00,-0.018523
313.00,-0.018415
312.00,-0.018259
311.00,-0.018015
310.00,-0.017723
309.00,-0.017315
308.00,-0.016723
307.00,-0.016016
306.00,-0.015116
305.00,-0.013982
304.00,-0.012629
303.00,-0.010987
302.00,-0.009016
301.00,-0.006686
300.00,-0.003907
299.00,-0.000549
298.00,0.003312
297.00,0.007875
296.00,0.013291
295.00,0.019264
294.00,0.025737
293.00,0.032214
292.00,0.038337
291.00,0.044018
290.00,0.049463
289.00,0.054714
288.00,0.059835
287.00,0.064711
286.00,0.068957
285.00,0.072341
284.00,0.074934
283.00,0.076759
282.00,0.078216
281.00,0.079591
280.00,0.080976
279.00,0.082103
278.00,0.082870
277.00,0.083102
276.00,0.082847
275.00,0.082187
274.00,0.081242
273.00,0.080077
272.00,0.078745
271.00,0.077272
270.00,0.075620
269.00,0.073775
268.00,0.071709
267.00,0.069323
266.00,0.066639
265.00,0.063800
264.00,0.060828
263.00,0.057746
262.00,0.054609
261.00,0.051351
260.00,0.048098
259.00,0.044867
258.00,0.041607
257.00,0.038512
256.00,0.035518
255.00,0.032622
254.00,0.029796
253.00,0.027089
252.00,0.024580
251.00,0.022288
250.00,0.020226
249.00,0.018294
248.00,0.016615
247.00,0.015270
246.00,0.014123
245.00,0.013324
244.00,0.012912
243.00,0.012963
242.00,0.013514
241.00,0.014643
240.00,0.016563
239.00,0.019417
238.00,0.023785
237.00,0.030196
236.00,0.038833
235.00,0.051572
234.00,0.068170
233.00,0.089423
232.00,0.117034
231.00,0.149863
230.00,0.186967
229.00,0.228193
228.00,0.271902
227.00,0.316515
226.00,0.360638
225.00,0.403339
224.00,0.441974
223.00,0.476066
222.00,0.504302
221.00,0.524318
220.00,0.536601
219.00,0.542175
218.00,0.540602
217.00,0.533067
216.00,0.521145
215.00,0.505623
214.00,0.487400
213.00,0.467524
212.00,0.446984
211.00,0.426599
210.00,0.407437
209.00,0.390383
208.00,0.375843
207.00,0.364186
206.00,0.356079
205.00,0.351185
204.00,0.348357
203.00,0.347393
202.00,0.347986
201.00,0.349815
200.00,0.352528
